N   total time    time per operation   Log(N)
0        0         -nan       -nan
50        33         0.66       -0.599462
100        119         1.19       0.250962
150        238         1.58667       0.665999
200        386         1.93       0.948601
250        563         2.252       1.17121
300        806         2.68667       1.42582
350        1094         3.12571       1.64419
400        1429         3.5725       1.83693
450        1801         4.00222       2.0008
500        2222         4.444       2.15186
550        2683         4.87818       2.28634
600        3217         5.36167       2.42268
650        3743         5.75846       2.52568
700        4340         6.2       2.63227
750        4978         6.63733       2.7306
800        5661         7.07625       2.82299
850        6384         7.51059       2.90893
900        7162         7.95778       2.99237
950        7977         8.39684       3.06985
1000        8842         8.842       3.14437
1050        9756         9.29143       3.2159
1100        10712         9.73818       3.28365
1150        11706         10.1791       3.34754
1200        12765         10.6375       3.41109
1250        13840         11.072       3.46884
1300        14945         11.4962       3.52308
1350        16164         11.9733       3.58175
1400        17308         12.3629       3.62794
1450        18651         12.8628       3.68513
1500        19917         13.278       3.73097
1550        21286         13.7329       3.77956
1600        22650         14.1562       3.82337
1650        24049         14.5752       3.86544
1700        25575         15.0441       3.91113
1750        27076         15.472       3.95159
1800        28818         16.01       4.0009
1850        30512         16.493       4.04378
1900        31924         16.8021       4.07057
1950        34501         17.6928       4.14509
2000        35945         17.9725       4.16772
2050        37396         18.242       4.18919
2100        38997         18.57       4.2149
2150        41232         19.1777       4.26136
2200        42833         19.4695       4.28315
2250        44735         19.8822       4.31341
2300        46851         20.37       4.34837
2350        52055         22.1511       4.4693
2400        51651         21.5212       4.42769
2450        53271         21.7433       4.4425
2500        55514         22.2056       4.47285
2550        57557         22.5714       4.49642
2600        60714         23.3515       4.54545
2650        62654         23.643       4.56334
2700        65258         24.1696       4.59512
2750        67080         24.3927       4.60838
2800        69521         24.8289       4.63395
2850        71849         25.2102       4.65593
2900        78047         26.9128       4.75022
2950        77083         26.1298       4.70763
3000        79687         26.5623       4.73131
3050        82240         26.9639       4.75296
3100        90212         29.1006       4.86298
3150        88128         27.9771       4.80618
3200        90671         28.3347       4.8245
3250        93399         28.7382       4.8449
3300        96271         29.173       4.86656
3350        99253         29.6278       4.88888
3400        102380         30.1118       4.91226
3450        105579         30.6026       4.93558
3500        108725         31.0643       4.95718
3550        111424         31.387       4.9721
3600        119340         33.15       5.05094
3650        117742         32.2581       5.01159
3700        122040         32.9838       5.04369
3750        124294         33.1451       5.05072
3800        128872         33.9137       5.0838
3850        131560         34.1714       5.09472
3900        134445         34.4731       5.1074
3950        139719         35.3719       5.14453
4000        145525         36.3813       5.18512
4050        148470         36.6593       5.19611
4100        151292         36.9005       5.20557
4150        162407         39.1342       5.29036
4200        166614         39.67       5.30998
4250        169510         39.8847       5.31776
4300        167951         39.0584       5.28756
4350        168974         38.8446       5.27964
4400        171297         38.9311       5.28285
4450        175620         39.4652       5.30251
4500        180769         40.1709       5.32808
4550        184878         40.6325       5.34456
4600        196809         42.7846       5.41902
4650        202282         43.5015       5.44299
4700        197470         42.0149       5.39283
4750        202483         42.628       5.41373
4800        217201         45.2502       5.49985
4850        211870         43.6845       5.44905
4900        212285         43.3235       5.43708
4950        216675         43.7727       5.45196
5000        228256         45.6512       5.51258
5050        232748         46.0887       5.52634
5100        229604         45.0204       5.49251
5150        234816         45.5953       5.51081
5200        238983         45.9583       5.52225
5250        245592         46.7794       5.5478
5300        248416         46.8709       5.55062
5350        253015         47.2925       5.56354
5400        262081         48.5335       5.60091
5450        267757         49.1297       5.61852
5500        269954         49.0825       5.61714
5550        272904         49.1719       5.61976
5600        277176         49.4957       5.62923
5650        291128         51.5271       5.68726
5700        287438         50.4277       5.65615
5750        292257         50.8273       5.66753
5800        301848         52.0428       5.70163
5850        302115         51.6436       5.69052
5900        307993         52.2022       5.70604
5950        312685         52.5521       5.71568
6000        326653         54.4422       5.76665
6050        323695         53.5033       5.74156
6100        328934         53.9236       5.75285
6150        342954         55.7649       5.80128
6200        343314         55.3732       5.79112
6250        347228         55.5565       5.79588
6300        365968         58.0902       5.86022
6350        357391         56.282       5.8146
6400        368263         57.5411       5.84652
6450        369820         57.3364       5.84138
6500        398512         61.3095       5.93804
6550        400517         61.1476       5.93422
6600        389089         58.9529       5.88149
6650        400954         60.2938       5.91394
6700        422896         63.1188       5.98
6750        506407         75.0233       6.22927
6800        494036         72.6524       6.18294
6850        494251         72.1534       6.173
6900        454949         65.9346       6.04296
6950        452150         65.0576       6.02364
7000        462285         66.0407       6.04528
7050        489105         69.3766       6.11638
7100        461181         64.9551       6.02137
7150        548896         76.7687       6.26245
7200        537267         74.6204       6.2215
7250        559876         77.2243       6.27098
7300        571237         78.2516       6.29005
7350        543318         73.9208       6.20791
7400        537126         72.5846       6.18159
7450        594592         79.811       6.31852
7500        618584         82.4779       6.36594
7550        640699         84.8608       6.40703
7600        529465         69.6664       6.12239
7650        635301         83.0459       6.37584
7700        603137         78.3295       6.29148
7750        665190         85.831       6.42343
7800        663933         85.1196       6.41142
7850        665764         84.8107       6.40617
7900        652348         82.5757       6.36765
7950        673635         84.734       6.40487
8000        714713         89.3391       6.48122
8050        742263         92.2066       6.5268
8100        675023         83.3362       6.38087
8150        636734         78.1269       6.28775
8200        634501         77.3782       6.27385
8250        616294         74.7023       6.22308
8300        620472         74.7557       6.22411
8350        678573         81.2662       6.34458
8400        662621         78.8835       6.30165
8450        692720         81.9787       6.35718
8500        785435         92.4041       6.52989
8550        714452         83.5616       6.38477
8600        709430         82.4919       6.36618
8650        681909         78.8334       6.30074
8700        723219         83.1286       6.37727
8750        733046         83.7767       6.38848
8800        764158         86.8361       6.44022
8850        739381         83.5459       6.3845
8900        733237         82.3862       6.36433
8950        726714         81.1971       6.34336
9000        752616         83.624       6.38585
9050        765602         84.5969       6.40253
9100        752873         82.7333       6.3704
9150        777716         84.9963       6.40933
9200        772056         83.9191       6.39093
9250        785203         84.8868       6.40747
9300        808200         86.9032       6.44134
9350        859793         91.9565       6.52288
9400        996506         106.011       6.72807
9450        854983         90.4744       6.49944
9500        1026966         108.102       6.75625
9550        860244         90.0779       6.4931
9600        834805         86.9589       6.44226
9650        842215         87.2762       6.44752
9700        849828         87.6111       6.45304
9750        968802         99.3643       6.63466
9800        956763         97.6289       6.60924
9850        909944         92.3801       6.52951
9900        916620         92.5879       6.53275
9950        939028         94.3747       6.56033
10000        933852         93.3852       6.54512
10050        936662         93.2002       6.54226
10100        1005683         99.5726       6.63768
10150        956085         94.1956       6.55759
10200        978384         95.92       6.58376
10250        1010872         98.6217       6.62383
10300        1112509         108.011       6.75503
10350        1147857         110.904       6.79317
10400        992428         95.4258       6.57631
10450        1005920         96.2603       6.58887
10500        1023844         97.509       6.60746
10550        1043800         98.9384       6.62846
10600        1086139         102.466       6.679
10650        1049681         98.5616       6.62295
10700        1051685         98.2883       6.61895
10750        1055753         98.2096       6.61779
10800        1090047         100.93       6.65722
10850        1108471         102.163       6.67473
10900        1106245         101.49       6.6652
10950        1132933         103.464       6.69299
11000        1128915         102.629       6.68129
11050        1143179         103.455       6.69286
11100        1151101         103.703       6.69631
11150        1171452         105.063       6.71511
11200        1260940         112.584       6.81486
11250        1193541         106.093       6.72918
11300        1192869         105.564       6.72197
11350        1180463         104.006       6.70052
11400        1210641         106.197       6.73059
11450        1211014         105.765       6.72472
11500        1201792         104.504       6.70741
11550        1213213         105.04       6.7148
11600        1245087         107.335       6.74598
11650        1256769         107.877       6.75325
11700        1254424         107.216       6.74437
11750        1261924         107.398       6.74682
11800        1272143         107.809       6.75233
11850        1274300         107.536       6.74867
11900        1286628         108.12       6.75649
11950        1303731         109.099       6.76949
12000        1299814         108.318       6.75913
12050        1305620         108.35       6.75956
12100        1316905         108.835       6.766
12150        1337220         110.059       6.78214
12200        1355962         111.144       6.79629
12250        1392489         113.673       6.82874
12300        1418104         115.293       6.84916
12350        1405655         113.818       6.83059
12400        1438263         115.989       6.85784
12450        1441965         115.82       6.85575
12500        1425511         114.041       6.83341
12550        1433458         114.22       6.83567
12600        1460775         115.935       6.85717
12650        1470789         116.268       6.86131
12700        1487983         117.164       6.87239
12750        1474614         115.656       6.8537
12800        1501547         117.308       6.87416
12850        1504160         117.055       6.87105
12900        1520056         117.834       6.88061
12950        1539447         118.876       6.89332
13000        1533376         117.952       6.88206
13050        1568278         120.175       6.90899
13100        1575756         120.287       6.91033
13150        1579504         120.114       6.90826
13200        1670736         126.571       6.9838
13250        1678970         126.715       6.98544
13300        1682556         126.508       6.98308
13350        1729195         129.528       7.01712
13400        1622205         121.06       6.91958
13450        1605797         119.39       6.89954
13500        1624107         120.304       6.91054
13550        1632039         120.446       6.91224
13600        1667793         122.632       6.93819
13650        1673477         122.599       6.9378
13700        1663018         121.388       6.92348
13750        1678663         122.085       6.93174
13800        1691157         122.548       6.9372
13850        1705015         123.106       6.94375
13900        1719866         123.731       6.95107
13950        1754412         125.764       6.97458
14000        1759960         125.711       6.97397
14050        1785763         127.101       6.98983
14100        1774282         125.836       6.9754
14150        1818526         128.518       7.00582
14200        1782590         125.535       6.97194
14250        1822277         127.879       6.99864
14300        1818044         127.136       6.99023
14350        1854393         129.226       7.01375
14400        1891962         131.386       7.03767
14450        1867804         129.26       7.01413
14500        1924386         132.716       7.0522
14550        2035242         139.879       7.12804
14600        1996341         136.736       7.09525
14650        1982394         135.317       7.0802
14700        1970083         134.019       7.0663
14750        1965327         133.243       7.05791
14800        1962105         132.575       7.05066
14850        1973718         132.91       7.05431
14900        2014131         135.177       7.0787
14950        2028897         135.712       7.08441
15000        2039206         135.947       7.0869
15050        2049070         136.151       7.08906
15100        2089351         138.368       7.11236
15150        2079251         137.244       7.1006
15200        2106209         138.566       7.11443
15250        2098252         137.59       7.10423
15300        2146422         140.289       7.13226
15350        2155725         140.438       7.13379
15400        2143727         139.203       7.12105
15450        2188296         141.637       7.14606
15500        2171744         140.113       7.13044
15550        2203015         141.673       7.14642
15600        2296651         147.221       7.20184
15650        2248015         143.643       7.16635
15700        2232407         142.192       7.15169
15750        2245265         142.557       7.15539
15800        2345953         148.478       7.21411
15850        2310003         145.742       7.18727
15900        2281076         143.464       7.16454
15950        2290056         143.577       7.16568
16000        2478121         154.883       7.27503
16050        2407121         149.976       7.22859
16100        2324535         144.381       7.17374
16150        2447307         151.536       7.24352
16200        2364660         145.967       7.1895
16250        2391442         147.166       7.2013
16300        2416158         148.231       7.2117
16350        2412590         147.559       7.20515
16400        2460634         150.039       7.22919
16450        2464931         149.844       7.22732
16500        2474365         149.962       7.22845
16550        2491844         150.565       7.23424
16600        2515123         151.513       7.2433
16650        2503109         150.337       7.23206
16700        2518666         150.818       7.23667
16750        2571124         153.5       7.26209
16800        2560909         152.435       7.25205
16850        2575025         152.82       7.25569
16900        2603193         154.035       7.26712
16950        2623128         154.757       7.27386
17000        2656311         156.254       7.28775
17050        2614218         153.327       7.26046
17100        2631993         153.918       7.26602
17150        2659089         155.049       7.27658
17200        2687703         156.262       7.28782
17250        2811913         163.009       7.34881
17300        2817871         162.883       7.34769
17350        2771743         159.755       7.31971
17400        2777567         159.63       7.31859
17450        2766865         158.56       7.30888
17500        2793794         159.645       7.31873
17550        2898725         165.17       7.3678
17600        2856470         162.299       7.34251
17650        2845761         161.233       7.333
17700        2879744         162.697       7.34605
17750        2888671         162.742       7.34644
17800        2906237         163.272       7.35113
17850        2963416         166.018       7.37519
17900        2991678         167.133       7.38485
17950        3051102         169.978       7.4092
18000        3166518         175.918       7.45876
18050        3130263         173.422       7.43814
18100        3064236         169.295       7.40339
18150        3106853         171.176       7.41934
18200        3111418         170.957       7.41749
18250        3045267         166.864       7.38253
18300        3090219         168.864       7.39972
18350        3030391         165.144       7.36758
18400        3056582         166.119       7.37607
18450        3084504         167.182       7.38527
18500        3078826         166.423       7.37871
18550        3143423         169.457       7.40477
18600        3153031         169.518       7.40529
18650        3135979         168.149       7.3936
18700        3178747         169.986       7.40928
18750        3150094         168.005       7.39236
18800        3178049         169.045       7.40126
18850        3242467         172.014       7.42638
18900        3235736         171.203       7.41956
18950        3281539         173.168       7.43603
19000        3239942         170.523       7.41382
19050        3277078         172.025       7.42648
19100        3307696         173.178       7.43611
19150        3295998         172.115       7.42723
19200        3330667         173.472       7.43856
19250        3340157         173.515       7.43891
19300        3351923         173.675       7.44024
19350        3384459         174.907       7.45045
19400        3428838         176.744       7.46552
19450        3479281         178.883       7.48288
19500        3498359         179.403       7.48706
19550        3453342         176.642       7.46468
19600        3467727         176.925       7.46699
19650        3476593         176.926       7.467
19700        3524203         178.894       7.48296
19750        3554837         179.992       7.49179
19800        3540059         178.791       7.48213
19850        3538657         178.27       7.47792
19900        3604384         181.125       7.50084
19950        3577717         179.334       7.48651
20000        3633034         181.652       7.50503
20050        3650019         182.046       7.50816
20100        3636793         180.935       7.49933
20150        3737037         185.461       7.53497
20200        3724784         184.395       7.52666
20250        3716219         183.517       7.51977
20300        3726633         183.578       7.52025
20350        3755834         184.562       7.52796
20400        3783878         185.484       7.53515
20450        3812278         186.419       7.54241
20500        3842563         187.442       7.5503
20550        3821769         185.974       7.53896
20600        3801972         184.562       7.52796
20650        3838995         185.908       7.53844
20700        3881300         187.502       7.55077
20750        3878764         186.928       7.54634
20800        3938978         189.374       7.56509
20850        3895823         186.85       7.54574
20900        3973952         190.141       7.57093
20950        4000377         190.949       7.57704
21000        3963059         188.717       7.56008
21050        3987286         189.42       7.56544
21100        4041384         191.535       7.58146
21150        4008015         189.504       7.56609
21200        4306122         203.119       7.66618
21250        4352286         204.813       7.67817
21300        4671943         219.34       7.77703
21350        4462750         209.028       7.70755
21400        4386603         204.981       7.67935
21450        4389820         204.654       7.67704
21500        4556813         211.945       7.72754
21550        4490575         208.379       7.70307
21600        4430036         205.094       7.68014
21650        4399675         203.218       7.66689
21700        4290890         197.737       7.62744
21750        4430312         203.693       7.67025
21800        4413824         202.469       7.66156
21850        4532774         207.45       7.69662
21900        4659809         212.777       7.7332
21950        4716667         214.882       7.7474
22000        4463585         202.89       7.66456
22050        4651954         210.973       7.72091
22100        4555300         206.122       7.68736
22150        4827260         217.935       7.76775
22200        4676865         210.67       7.71884
22250        4821383         216.691       7.7595
22300        4642656         208.191       7.70176
22350        4677368         209.278       7.70928
22400        4752036         212.144       7.7289
22450        4628330         206.162       7.68763
22500        4911411         218.285       7.77007
22550        4849037         215.035       7.74843
22600        4778223         211.426       7.72401
22650        4904981         216.555       7.75859
22700        4875515         214.78       7.74672
22750        4738095         208.268       7.7023
22800        4806777         210.824       7.71989
22850        4799632         210.05       7.71459
22900        4822410         210.586       7.71826
22950        4917295         214.261       7.74323
23000        4841244         210.489       7.7176
23050        4957344         215.069       7.74866
23100        4832024         209.179       7.70859
23150        4853675         209.662       7.71192
23200        4862540         209.592       7.71144
23250        4942989         212.602       7.73201
23300        4939547         211.998       7.7279
23350        4971311         212.904       7.73406
23400        4970198         212.402       7.73065
23450        4988338         212.722       7.73283
23500        5001328         212.822       7.73351
23550        5026673         213.447       7.73773
23600        5150603         218.246       7.76981
23650        5064458         214.142       7.74242
23700        5136949         216.749       7.75988
23750        5240008         220.632       7.7855
23800        5174670         217.423       7.76436
23850        5183878         217.353       7.7639
23900        5174681         216.514       7.75832
23950        5186177         216.542       7.7585
24000        5284501         220.188       7.78259
24050        5358443         222.804       7.79963
24100        5571482         231.182       7.85288
24150        5475380         226.724       7.82479
24200        5486851         226.729       7.82483
24250        5400591         222.705       7.79899
24300        5419038         223.006       7.80094
24350        5480046         225.053       7.81412
24400        5648307         231.488       7.85479
24450        5571452         227.871       7.83208
24500        5616017         229.225       7.84062
24550        5538966         225.62       7.81775
24600        5651751         229.746       7.8439
24650        5615904         227.826       7.83179
24700        5619538         227.512       7.8298
24750        5992681         242.129       7.91963
24800        5804804         234.065       7.87076
24850        5732136         230.669       7.84968
24900        5947835         238.869       7.90008
24950        5702695         228.565       7.83646
